figure1,corrAns,block_1.thisRepN,block_1.thisTrialN,block_1.thisN,block_1.thisIndex,intro_1.started,intro_2.started,intro_resp_1.started,intro_text_3.started,intro_text_4.started,intro_resp_2.started,training_crosshair.started,t_stim_1.started,t_stim_resp_1.started,training_crosshair.stopped,t_stim_resp_1.keys,t_stim_resp_1.corr,t_stim_resp_1.rt,feedback.started,feedback.stopped,t_stim_2.started,t_stim_resp_2.started,t_stim_resp_2.keys,t_stim_resp_2.corr,t_stim_resp_2.rt,feedback_3.started,feedback_3.stopped,crosshair.started,stim_resp.started,image.started,stim_resp.keys,stim_resp.corr,stim_resp.rt,crosshair.stopped,thankyou_screen.started,participant,date,expName,psychopyVersion,frameRate,
,,,,,,14.975931708002463,16.96715487493202,2.006693165982142,20.958241250016727,25.95257025002502,4.999396500061266,27.28478812496178,29.24052891600877,29.24052891600877,29.30654687504284,b,1,5.527049917029217,,,,,,,,,,,,,,,,,,03029,2023-04-19_13h52.05.989,codetms_version3,2022.2.5,None,
,,,,,,,,,,,,,,,,,,,34.78572608297691,36.789733374956995,36.789733374956995,36.789733374956995,a,1,5.348739584092982,,,,,,,,,,,03029,2023-04-19_13h52.05.989,codetms_version3,2022.2.5,None,
327.bmp,b,0,0,0,58,,,,,,,,,,,,,,,,,,,,,42.159305040957406,44.157022916013375,70.93668687494937,47.19590158294886,47.19590158294886,a,0,23.723049292108044,73.94833795796148,,03029,2023-04-19_13h52.05.989,codetms_version3,2022.2.5,None,
127.bmp,b,0,1,1,48,,,,,,,,,,,,,,,,,,,,,,,92.15495341597125,73.94833795796148,73.94833795796148,b,1,18.17705662501976,,,03029,2023-04-19_13h52.05.989,codetms_version3,2022.2.5,None,
93.jpg,a,0,2,2,25,,,,,,,,,,,,,,,,,,,,,,,104.87001854099799,95.18767612497322,95.18767612497322,a,1,9.66762858396396,107.8812724580057,,03029,2023-04-19_13h52.05.989,codetms_version3,2022.2.5,None,
9.BMP,a,0,3,3,5,,,,,,,,,,,,,,,,,,,,,,,134.39566520799417,107.8812724580057,107.8812724580057,a,1,26.49758200009819,137.42000258294865,,03029,2023-04-19_13h52.05.989,codetms_version3,2022.2.5,None,
318.bmp,b,0,4,4,55,,,,,,,,,,,,,,,,,,,,,,,165.36484375002328,137.42000258294865,137.42000258294865,a,0,27.935344709083438,168.3753553329734,,03029,2023-04-19_13h52.05.989,codetms_version3,2022.2.5,None,
42.BMP,a,0,5,5,18,,,,,,,,,,,,,,,,,,,,,,,178.43744654103648,168.3753553329734,168.3753553329734,a,1,10.04514933412429,,,03029,2023-04-19_13h52.05.989,codetms_version3,2022.2.5,None,
140.bmp,a,0,6,6,46,,,,,,,,,,,,,,,,,,,,,,,206.8421743749641,181.46039100002963,181.46039100002963,b,0,25.366751249996014,209.8602151250234,,03029,2023-04-19_13h52.05.989,codetms_version3,2022.2.5,None,
114.jpg,a,0,7,7,23,,,,,,,,,,,,,,,,,,,,,,,218.12953787494916,209.8602151250234,209.8602151250234,a,1,8.247757792123593,,,03029,2023-04-19_13h52.05.989,codetms_version3,2022.2.5,None,
13.BMP,b,0,8,8,6,,,,,,,,,,,,,,,,,,,,,,,236.53313650004566,221.14987424993888,221.14987424993888,b,1,15.37223687605001,239.5433122080285,,03029,2023-04-19_13h52.05.989,codetms_version3,2022.2.5,None,
113.jpg,b,0,9,9,33,,,,,,,,,,,,,,,,,,,,,,,249.01803329098038,239.5433122080285,239.5433122080285,b,1,9.465231542941183,252.0222297499422,,03029,2023-04-19_13h52.05.989,codetms_version3,2022.2.5,None,
96.jpg,a,0,10,10,29,,,,,,,,,,,,,,,,,,,,,,,258.63164816598874,252.0222297499422,252.0222297499422,a,1,6.602275167941116,261.6366759579396,,03029,2023-04-19_13h52.05.989,codetms_version3,2022.2.5,None,
4.BMP,a,0,11,11,1,,,,,,,,,,,,,,,,,,,,,,,273.93829162500333,261.6366759579396,261.6366759579396,a,1,12.286614750977606,276.9489431659458,,03029,2023-04-19_13h52.05.989,codetms_version3,2022.2.5,None,
16.BMP,b,0,12,12,0,,,,,,,,,,,,,,,,,,,,,,,286.39208633301314,276.9489431659458,276.9489431659458,b,1,9.430538126034662,,,03029,2023-04-19_13h52.05.989,codetms_version3,2022.2.5,None,
97.jpg,b,0,13,13,21,,,,,,,,,,,,,,,,,,,,,,,295.7576182499761,289.4177663329756,289.4177663329756,b,1,6.331244792090729,298.76861699996516,,03029,2023-04-19_13h52.05.989,codetms_version3,2022.2.5,None,
101.jpg,b,0,14,14,35,,,,,,,,,,,,,,,,,,,,,,,316.6063722500112,298.76861699996516,298.76861699996516,b,1,17.82907700096257,,,03029,2023-04-19_13h52.05.989,codetms_version3,2022.2.5,None,
38.BMP,b,0,15,15,49,,,,,,,,,,,,,,,,,,,,,,,332.44600112503394,319.6245661659632,319.6245661659632,b,1,12.81230129301548,,,03029,2023-04-19_13h52.05.989,codetms_version3,2022.2.5,None,
11.BMP,b,0,16,16,3,,,,,,,,,,,,,,,,,,,,,,,351.06376983295195,335.45642850000877,335.45642850000877,b,1,15.5743323341012,,,03029,2023-04-19_13h52.05.989,codetms_version3,2022.2.5,None,
137.bmp,b,0,17,17,44,,,,,,,,,,,,,,,,,,,,,,,380.79041474999394,354.07881154096685,354.07881154096685,b,1,26.703748125000857,,,03029,2023-04-19_13h52.05.989,codetms_version3,2022.2.5,None,
321.bmp,a,0,18,18,56,,,,,,,,,,,,,,,,,,,,,,,396.7433391249506,383.80676383303944,383.80676383303944,b,0,12.915660167112947,399.7440330409445,,03029,2023-04-19_13h52.05.989,codetms_version3,2022.2.5,None,
147.bmp,a,0,19,19,47,,,,,,,,,,,,,,,,,,,,,,,420.87654137494974,399.7440330409445,399.7440330409445,a,1,21.108620251063257,423.8777456249809,,03029,2023-04-19_13h52.05.989,codetms_version3,2022.2.5,None,
76.BMP,b,0,20,20,37,,,,,,,,,,,,,,,,,,,,,,,430.08652291598264,423.8777456249809,423.8777456249809,b,1,6.1972869171295315,433.085455082939,,03029,2023-04-19_13h52.05.989,codetms_version3,2022.2.5,None,
33.BMP,b,0,21,21,20,,,,,,,,,,,,,,,,,,,,,,,444.8971248329617,433.085455082939,433.085455082939,b,1,11.778519625077024,,,03029,2023-04-19_13h52.05.989,codetms_version3,2022.2.5,None,
128.bmp,b,0,22,22,42,,,,,,,,,,,,,,,,,,,,,,,461.526941374992,447.89985533303116,447.89985533303116,a,0,13.62021254200954,464.53152366599534,,03029,2023-04-19_13h52.05.989,codetms_version3,2022.2.5,None,
1.BMP,a,0,23,23,4,,,,,,,,,,,,,,,,,,,,,,,479.48601216601674,464.53152366599534,464.53152366599534,a,1,14.94012583408039,482.48671191593166,,03029,2023-04-19_13h52.05.989,codetms_version3,2022.2.5,None,
72.BMP,b,0,24,24,38,,,,,,,,,,,,,,,,,,,,,,,485.9518115830142,482.48671191593166,482.48671191593166,b,1,3.453227501013316,488.9573872080073,,03029,2023-04-19_13h52.05.989,codetms_version3,2022.2.5,None,
126.bmp,a,0,25,25,45,,,,,,,,,,,,,,,,,,,,,,,497.41504820797127,488.9573872080073,488.9573872080073,a,1,8.447914876043797,500.4173361660214,,03029,2023-04-19_13h52.05.989,codetms_version3,2022.2.5,None,
312.bmp,b,0,26,26,53,,,,,,,,,,,,,,,,,,,,,,,527.3735233329935,500.4173361660214,500.4173361660214,a,0,26.933897458948195,530.3747082499322,,03029,2023-04-19_13h52.05.989,codetms_version3,2022.2.5,None,
303.bmp,a,0,27,27,50,,,,,,,,,,,,,,,,,,,,,,,546.0924052910414,530.3747082499322,530.3747082499322,a,1,15.690343793015927,,,03029,2023-04-19_13h52.05.989,codetms_version3,2022.2.5,None,
60.BMP,a,0,28,28,16,,,,,,,,,,,,,,,,,,,,,,,568.9387768330052,549.0878527909517,549.0878527909517,b,0,19.828174875001423,,,03029,2023-04-19_13h52.05.989,codetms_version3,2022.2.5,None,
54.BMP,b,0,29,29,10,,,,,,,,,,,,,,,,,,,,,,,625.7506337079685,571.9513494159328,571.9513494159328,b,1,53.79011183406692,628.7555196660105,,03029,2023-04-19_13h52.05.989,codetms_version3,2022.2.5,None,
330.bmp,a,0,30,30,59,,,,,,,,,,,,,,,,,,,,,,,655.6722174580209,628.7555196660105,628.7555196660105,a,1,26.899674668093212,658.672328790999,,03029,2023-04-19_13h52.05.989,codetms_version3,2022.2.5,None,
315.bmp,b,0,31,31,54,,,,,,,,,,,,,,,,,,,,,,,684.77584204101,658.672328790999,658.672328790999,b,1,26.090631291968748,,,03029,2023-04-19_13h52.05.989,codetms_version3,2022.2.5,None,
46.BMP,a,0,32,32,15,,,,,,,,,,,,,,,,,,,,,,,705.040767041035,687.7857485830318,687.7857485830318,a,1,17.239352584001608,,,03029,2023-04-19_13h52.05.989,codetms_version3,2022.2.5,None,
83.BMP,a,0,33,33,22,,,,,,,,,,,,,,,,,,,,,,,715.4463070000056,708.0585049579386,708.0585049579386,a,1,7.364439168013632,,,03029,2023-04-19_13h52.05.989,codetms_version3,2022.2.5,None,
105.jpg,b,0,34,34,31,,,,,,,,,,,,,,,,,,,,,,,739.0015583749628,718.4710077500204,718.4710077500204,b,1,20.50188458408229,742.005704625044,,03029,2023-04-19_13h52.05.989,codetms_version3,2022.2.5,None,
206.bmp,b,0,35,35,8,,,,,,,,,,,,,,,,,,,,,,,751.9769074580399,742.005704625044,742.005704625044,b,1,9.938929542084225,,,03029,2023-04-19_13h52.05.989,codetms_version3,2022.2.5,None,
82.BMP,a,0,36,36,30,,,,,,,,,,,,,,,,,,,,,,,760.0831550409785,754.9824502080446,754.9824502080446,a,1,5.087455251021311,763.089824207942,,03029,2023-04-19_13h52.05.989,codetms_version3,2022.2.5,None,
324.bmp,b,0,37,37,57,,,,,,,,,,,,,,,,,,,,,,,787.9261791659519,763.089824207942,763.089824207942,b,1,24.82049816707149,790.9326237499481,,03029,2023-04-19_13h52.05.989,codetms_version3,2022.2.5,None,
49.BMP,a,0,38,38,11,,,,,,,,,,,,,,,,,,,,,,,804.9825817910023,790.9326237499481,790.9326237499481,a,1,14.04261629213579,807.9936731660273,,03029,2023-04-19_13h52.05.989,codetms_version3,2022.2.5,None,
118.jpg,a,0,39,39,36,,,,,,,,,,,,,,,,,,,,,,,823.206234165933,807.9936731660273,807.9936731660273,b,0,15.202951375045814,826.2056233329931,,03029,2023-04-19_13h52.05.989,codetms_version3,2022.2.5,None,
22.BMP,a,0,40,40,7,,,,,,,,,,,,,,,,,,,,,,,833.2975512079429,826.2056233329931,826.2056233329931,a,1,7.066567084053531,,,03029,2023-04-19_13h52.05.989,codetms_version3,2022.2.5,None,
73.BMP,b,0,41,41,26,,,,,,,,,,,,,,,,,,,,,,,840.6561233330285,836.3067621249938,836.3067621249938,b,1,4.33300133398734,843.6616084999405,,03029,2023-04-19_13h52.05.989,codetms_version3,2022.2.5,None,
98.jpg,b,0,42,42,28,,,,,,,,,,,,,,,,,,,,,,,853.6059785409598,843.6616084999405,843.6616084999405,b,1,9.934659291990101,,,03029,2023-04-19_13h52.05.989,codetms_version3,2022.2.5,None,
331.bmp,b,0,43,43,60,,,,,,,,,,,,,,,,,,,,,,,886.0138742909767,856.6230476249475,856.6230476249475,b,1,29.373127168044448,889.0193137079477,,03029,2023-04-19_13h52.05.989,codetms_version3,2022.2.5,None,
66.BMP,b,0,44,44,32,,,,,,,,,,,,,,,,,,,,,,,896.9330296659609,889.0193137079477,889.0193137079477,b,1,7.905188251053914,899.9440147080459,,03029,2023-04-19_13h52.05.989,codetms_version3,2022.2.5,None,
309.bmp,b,0,45,45,52,,,,,,,,,,,,,,,,,,,,,,,948.0246843750356,899.9440147080459,899.9440147080459,a,0,48.06706250004936,951.0427924159449,,03029,2023-04-19_13h52.05.989,codetms_version3,2022.2.5,None,
99.jpg,b,0,46,46,34,,,,,,,,,,,,,,,,,,,,,,,959.6996985409642,951.0427924159449,951.0427924159449,b,1,8.641655626008287,962.7025562080089,,03029,2023-04-19_13h52.05.989,codetms_version3,2022.2.5,None,
89.BMP,a,0,47,47,27,,,,,,,,,,,,,,,,,,,,,,,969.1823712079786,962.7025562080089,962.7025562080089,a,1,6.459600251051597,972.1819883330027,,03029,2023-04-19_13h52.05.989,codetms_version3,2022.2.5,None,
59.BMP,b,0,48,48,13,,,,,,,,,,,,,,,,,,,,,,,1004.6566260829568,972.1819883330027,972.1819883330027,b,1,32.46259391703643,1007.659829583019,,03029,2023-04-19_13h52.05.989,codetms_version3,2022.2.5,None,
213.bmp,b,0,49,49,19,,,,,,,,,,,,,,,,,,,,,,,1023.5447028749622,1007.659829583019,1007.659829583019,b,1,15.876701417029835,1026.5563419579994,,03029,2023-04-19_13h52.05.989,codetms_version3,2022.2.5,None,
120.jpg,b,0,50,50,24,,,,,,,,,,,,,,,,,,,,,,,1032.973177790991,1026.5563419579994,1026.5563419579994,b,1,6.396343125030398,,,03029,2023-04-19_13h52.05.989,codetms_version3,2022.2.5,None,
136.bmp,a,0,51,51,43,,,,,,,,,,,,,,,,,,,,,,,1050.7963471249677,1035.9877509579528,1035.9877509579528,a,1,14.79995425103698,1053.8049902500352,,03029,2023-04-19_13h52.05.989,codetms_version3,2022.2.5,None,
133.bmp,a,0,52,52,41,,,,,,,,,,,,,,,,,,,,,,,1077.0451496250462,1053.8049902500352,1053.8049902500352,a,1,23.23259608412627,1080.0506350409705,,03029,2023-04-19_13h52.05.989,codetms_version3,2022.2.5,None,
130.bmp,b,0,53,53,39,,,,,,,,,,,,,,,,,,,,,,,1109.282666999963,1080.0506350409705,1080.0506350409705,b,1,29.217232668073848,1112.2829159579705,,03029,2023-04-19_13h52.05.989,codetms_version3,2022.2.5,None,
131.bmp,a,0,54,54,40,,,,,,,,,,,,,,,,,,,,,,,1121.149377707974,1112.2829159579705,1112.2829159579705,a,1,8.856460168026388,1124.1607282499317,,03029,2023-04-19_13h52.05.989,codetms_version3,2022.2.5,None,
3.BMP,a,0,55,55,2,,,,,,,,,,,,,,,,,,,,,,,1139.708060957957,1124.1607282499317,1124.1607282499317,a,1,15.537347418023273,1142.7281710410025,,03029,2023-04-19_13h52.05.989,codetms_version3,2022.2.5,None,
306.bmp,b,0,56,56,51,,,,,,,,,,,,,,,,,,,,,,,1163.2931997079868,1142.7281710410025,1142.7281710410025,b,1,20.552602667012252,1166.3069235410076,,03029,2023-04-19_13h52.05.989,codetms_version3,2022.2.5,None,
209.bmp,b,0,57,57,14,,,,,,,,,,,,,,,,,,,,,,,1185.63146087504,1166.3069235410076,1166.3069235410076,b,1,19.316161918104626,,,03029,2023-04-19_13h52.05.989,codetms_version3,2022.2.5,None,
208.bmp,a,0,58,58,17,,,,,,,,,,,,,,,,,,,,,,,1215.9440324580064,1188.645735875005,1188.645735875005,a,1,27.283873709035106,1218.9462508329889,,03029,2023-04-19_13h52.05.989,codetms_version3,2022.2.5,None,
23.BMP,a,0,59,59,9,,,,,,,,,,,,,,,,,,,,,,,1230.9984133749967,1218.9462508329889,1218.9462508329889,a,1,12.03937950101681,1234.0076778329676,,03029,2023-04-19_13h52.05.989,codetms_version3,2022.2.5,None,
56.BMP,b,0,60,60,12,,,,,,,,,,,,,,,,,,,,,,,1241.668402415933,1234.0076778329676,1234.0076778329676,b,1,7.6512768340762705,1244.7041777080158,,03029,2023-04-19_13h52.05.989,codetms_version3,2022.2.5,None,
,,,,,,,,,,,,,,,,,,,,,,,,,,,,,,,,,,,1244.7041777080158,,,,,,
