figure1,corrAns,block_1.thisRepN,block_1.thisTrialN,block_1.thisN,block_1.thisIndex,intro_1.started,intro_2.started,intro_resp_1.started,intro_text_3.started,intro_text_4.started,intro_resp_2.started,training_crosshair.started,t_stim_1.started,t_stim_resp_1.started,training_crosshair.stopped,t_stim_resp_1.keys,t_stim_resp_1.corr,t_stim_resp_1.rt,feedback.started,t_stim_2.started,t_stim_resp_2.started,t_stim_resp_2.keys,t_stim_resp_2.corr,t_stim_resp_2.rt,feedback_3.started,crosshair.started,stim_resp.started,image.started,stim_resp.keys,stim_resp.corr,stim_resp.rt,crosshair.stopped,thankyou_screen.started,participant,date,expName,psychopyVersion,frameRate,
,,,,,,12.082772083114833,14.068001000210643,1.9992912081070244,15.987136458046734,20.975320750148967,5.004591958131641,21.669017625041306,23.618205166189,23.618205166189,23.659779665991664,b,1,4.467369332909584,,,,,,,,,,,,,,,,00193,2023-05-22_13h12.12.942,codetms_version2,2022.2.5,None,
,,,,,,,,,,,,,,,,,,,28.119332125177607,30.1239315001294,30.1239315001294,a,1,4.296633874764666,,,,,,,,,,00193,2023-05-22_13h12.12.942,codetms_version2,2022.2.5,None,
51.BMP,a,0,0,0,17,,,,,,,,,,,,,,,,,,,,34.4523522912059,46.829857166158035,39.48854008316994,39.48854008316994,a,1,7.3292063740082085,49.84284866601229,,00193,2023-05-22_13h12.12.942,codetms_version2,2022.2.5,None,
29.BMP,a,0,1,1,1,,,,,,,,,,,,,,,,,,,,,68.8719377501402,49.84284866601229,49.84284866601229,a,1,19.018651999998838,71.88897308311425,,00193,2023-05-22_13h12.12.942,codetms_version2,2022.2.5,None,
35.BMP,b,0,2,2,15,,,,,,,,,,,,,,,,,,,,,104.96996104111895,71.88897308311425,71.88897308311425,b,1,33.06591712497175,107.98754795803688,,00193,2023-05-22_13h12.12.942,codetms_version2,2022.2.5,None,
323.bmp,b,0,3,3,57,,,,,,,,,,,,,,,,,,,,,131.0976823330857,107.98754795803688,107.98754795803688,a,0,23.097501915879548,,,00193,2023-05-22_13h12.12.942,codetms_version2,2022.2.5,None,
204.bmp,b,0,4,4,0,,,,,,,,,,,,,,,,,,,,,138.54577070800588,134.11360183311626,134.11360183311626,b,1,4.41458504088223,141.56054370803759,,00193,2023-05-22_13h12.12.942,codetms_version2,2022.2.5,None,
302.bmp,a,0,5,5,50,,,,,,,,,,,,,,,,,,,,,158.2612193331588,141.56054370803759,141.56054370803759,b,0,16.681861081859097,161.2729832911864,,00193,2023-05-22_13h12.12.942,codetms_version2,2022.2.5,None,
207.bmp,a,0,6,6,7,,,,,,,,,,,,,,,,,,,,,187.4035294582136,161.2729832911864,161.2729832911864,a,1,26.1117721660994,190.4170862501487,,00193,2023-05-22_13h12.12.942,codetms_version2,2022.2.5,None,
43.BMP,b,0,7,7,12,,,,,,,,,,,,,,,,,,,,,203.43063829117455,190.4170862501487,190.4170862501487,b,1,13.002224791096523,206.45729862502776,,00193,2023-05-22_13h12.12.942,codetms_version2,2022.2.5,None,
110.jpg,a,0,8,8,27,,,,,,,,,,,,,,,,,,,,,233.27970687509514,206.45729862502776,206.45729862502776,b,0,26.802973540965468,236.29406937514432,,00193,2023-05-22_13h12.12.942,codetms_version2,2022.2.5,None,
320.bmp,a,0,9,9,56,,,,,,,,,,,,,,,,,,,,,252.69510925002396,236.29406937514432,236.29406937514432,b,0,16.38839045795612,255.70893787499517,,00193,2023-05-22_13h12.12.942,codetms_version2,2022.2.5,None,
332.bmp,a,0,10,10,60,,,,,,,,,,,,,,,,,,,,,273.8388253750745,255.70893787499517,255.70893787499517,b,0,18.1176444159355,276.8670394581277,,00193,2023-05-22_13h12.12.942,codetms_version2,2022.2.5,None,
106.jpg,a,0,11,11,23,,,,,,,,,,,,,,,,,,,,,310.16952925012447,276.8670394581277,276.8670394581277,b,0,33.263318123994395,,,00193,2023-05-22_13h12.12.942,codetms_version2,2022.2.5,None,
311.bmp,b,0,12,12,53,,,,,,,,,,,,,,,,,,,,,339.69788337498903,313.1898448751308,313.1898448751308,b,1,26.488349498948082,342.729518083157,,00193,2023-05-22_13h12.12.942,codetms_version2,2022.2.5,None,
116.jpg,b,0,13,13,34,,,,,,,,,,,,,,,,,,,,,362.7676743331831,342.729518083157,342.729518083157,a,0,20.022337540984154,365.78533337521367,,00193,2023-05-22_13h12.12.942,codetms_version2,2022.2.5,None,
115.jpg,b,0,14,14,36,,,,,,,,,,,,,,,,,,,,,383.53033529105596,365.78533337521367,365.78533337521367,b,1,17.734808957902715,,,00193,2023-05-22_13h12.12.942,codetms_version2,2022.2.5,None,
41.BMP,b,0,15,15,11,,,,,,,,,,,,,,,,,,,,,418.7537345411256,386.5505199159961,386.5505199159961,b,1,32.18646608199924,421.76101241610013,,00193,2023-05-22_13h12.12.942,codetms_version2,2022.2.5,None,
5.BMP,a,0,16,16,5,,,,,,,,,,,,,,,,,,,,,431.28819083306007,421.76101241610013,421.76101241610013,a,1,9.509486750001088,434.31486795819364,,00193,2023-05-22_13h12.12.942,codetms_version2,2022.2.5,None,
141.bmp,b,0,17,17,40,,,,,,,,,,,,,,,,,,,,,457.4360503330827,434.31486795819364,434.31486795819364,b,1,23.10888983309269,460.4478528331965,,00193,2023-05-22_13h12.12.942,codetms_version2,2022.2.5,None,
211.bmp,a,0,18,18,10,,,,,,,,,,,,,,,,,,,,,478.9602228330914,460.4478528331965,460.4478528331965,a,1,18.50170708191581,481.9860869999975,,00193,2023-05-22_13h12.12.942,codetms_version2,2022.2.5,None,
2.BMP,b,0,19,19,3,,,,,,,,,,,,,,,,,,,,,496.8184552080929,481.9860869999975,481.9860869999975,b,1,14.815178707940504,499.842040625168,,00193,2023-05-22_13h12.12.942,codetms_version2,2022.2.5,None,
129.bmp,a,0,20,20,46,,,,,,,,,,,,,,,,,,,,,511.13145491620526,499.842040625168,499.842040625168,a,1,11.271685915999115,514.1416072081774,,00193,2023-05-22_13h12.12.942,codetms_version2,2022.2.5,None,
20.BMP,b,0,21,21,9,,,,,,,,,,,,,,,,,,,,,536.2359172501601,514.1416072081774,514.1416072081774,b,1,22.082780581898987,539.2675245830324,,00193,2023-05-22_13h12.12.942,codetms_version2,2022.2.5,None,
112.jpg,b,0,22,22,22,,,,,,,,,,,,,,,,,,,,,556.7177335831802,539.2675245830324,539.2675245830324,b,1,17.435461665969342,559.7367291250266,,00193,2023-05-22_13h12.12.942,codetms_version2,2022.2.5,None,
17.BMP,b,0,23,23,6,,,,,,,,,,,,,,,,,,,,,570.113430333091,559.7367291250266,559.7367291250266,b,1,10.353977208025753,573.1291335830465,,00193,2023-05-22_13h12.12.942,codetms_version2,2022.2.5,None,
53.BMP,b,0,24,24,20,,,,,,,,,,,,,,,,,,,,,594.9998122910038,573.1291335830465,573.1291335830465,b,1,21.860681124962866,598.0184440000448,,00193,2023-05-22_13h12.12.942,codetms_version2,2022.2.5,None,
71.BMP,b,0,25,25,21,,,,,,,,,,,,,,,,,,,,,629.9552372081671,598.0184440000448,598.0184440000448,b,1,31.921095123980194,,,00193,2023-05-22_13h12.12.942,codetms_version2,2022.2.5,None,
203.bmp,a,0,26,26,8,,,,,,,,,,,,,,,,,,,,,648.6985336660873,632.9986675411928,632.9986675411928,a,1,15.688438791083172,,,00193,2023-05-22_13h12.12.942,codetms_version2,2022.2.5,None,
143.bmp,a,0,27,27,43,,,,,,,,,,,,,,,,,,,,,680.2231087500695,651.7338401661254,651.7338401661254,a,1,28.479739998932928,,,00193,2023-05-22_13h12.12.942,codetms_version2,2022.2.5,None,
329.bmp,b,0,28,28,59,,,,,,,,,,,,,,,,,,,,,708.8885084160138,683.2464984580874,683.2464984580874,a,0,25.627836416009814,711.904209875036,,00193,2023-05-22_13h12.12.942,codetms_version2,2022.2.5,None,
150.bmp,b,0,29,29,47,,,,,,,,,,,,,,,,,,,,,746.4572237501852,711.904209875036,711.904209875036,b,1,34.53786479099654,749.4690025001764,,00193,2023-05-22_13h12.12.942,codetms_version2,2022.2.5,None,
138.bmp,a,0,30,30,45,,,,,,,,,,,,,,,,,,,,,777.970395833021,749.4690025001764,749.4690025001764,a,1,28.48512433283031,780.9881542911753,,00193,2023-05-22_13h12.12.942,codetms_version2,2022.2.5,None,
48.BMP,a,0,31,31,19,,,,,,,,,,,,,,,,,,,,,792.3068117080256,780.9881542911753,780.9881542911753,a,1,11.309486956801265,795.3259951660875,,00193,2023-05-22_13h12.12.942,codetms_version2,2022.2.5,None,
325.bmp,a,0,32,32,58,,,,,,,,,,,,,,,,,,,,,810.6633652080782,795.3259951660875,795.3259951660875,b,0,15.320379541022703,813.6937285000458,,00193,2023-05-22_13h12.12.942,codetms_version2,2022.2.5,None,
91.jpg,a,0,33,33,24,,,,,,,,,,,,,,,,,,,,,827.373220208101,813.6937285000458,813.6937285000458,a,1,13.661524124909192,830.3968713330105,,00193,2023-05-22_13h12.12.942,codetms_version2,2022.2.5,None,
145.bmp,a,0,34,34,42,,,,,,,,,,,,,,,,,,,,,868.0545663330704,830.3968713330105,830.3968713330105,b,0,37.645023791119456,871.0715570831671,,00193,2023-05-22_13h12.12.942,codetms_version2,2022.2.5,None,
57.BMP,b,0,35,35,13,,,,,,,,,,,,,,,,,,,,,891.164628541097,871.0715570831671,871.0715570831671,b,1,20.080925540998578,894.1911127911881,,00193,2023-05-22_13h12.12.942,codetms_version2,2022.2.5,None,
119.jpg,a,0,36,36,35,,,,,,,,,,,,,,,,,,,,,912.8226764581632,894.1911127911881,894.1911127911881,a,1,18.61378899984993,915.843928208109,,00193,2023-05-22_13h12.12.942,codetms_version2,2022.2.5,None,
39.BMP,a,0,37,37,16,,,,,,,,,,,,,,,,,,,,,924.3550712501165,915.843928208109,915.843928208109,a,1,8.494769331999123,927.3651942911092,,00193,2023-05-22_13h12.12.942,codetms_version2,2022.2.5,None,
65.BMP,b,0,38,38,26,,,,,,,,,,,,,,,,,,,,,931.0656591251027,927.3651942911092,927.3651942911092,b,1,3.6838150408584625,934.0855256251525,,00193,2023-05-22_13h12.12.942,codetms_version2,2022.2.5,None,
40.jpg,b,0,39,39,18,,,,,,,,,,,,,,,,,,,,,950.9862700831145,934.0855256251525,934.0855256251525,b,1,16.891322831856087,953.999534125207,,00193,2023-05-22_13h12.12.942,codetms_version2,2022.2.5,None,
14.BMP,a,0,40,40,4,,,,,,,,,,,,,,,,,,,,,970.598489458207,953.999534125207,953.999534125207,a,1,16.583447874058038,973.6201164580416,,00193,2023-05-22_13h12.12.942,codetms_version2,2022.2.5,None,
202.bmp,a,0,41,41,2,,,,,,,,,,,,,,,,,,,,,983.7814831251744,973.6201164580416,973.6201164580416,b,0,10.15433641592972,986.7962922081351,,00193,2023-05-22_13h12.12.942,codetms_version2,2022.2.5,None,
68.BMP,a,0,42,42,33,,,,,,,,,,,,,,,,,,,,,990.8100428751204,986.7962922081351,986.7962922081351,a,1,4.001163832843304,,,00193,2023-05-22_13h12.12.942,codetms_version2,2022.2.5,None,
314.bmp,a,0,43,43,54,,,,,,,,,,,,,,,,,,,,,1004.0182199580595,993.8387593750376,993.8387593750376,a,1,10.165445915888995,1007.0314302500337,,00193,2023-05-22_13h12.12.942,codetms_version2,2022.2.5,None,
135.bmp,b,0,44,44,41,,,,,,,,,,,,,,,,,,,,,1026.639475375181,1007.0314302500337,1007.0314302500337,b,1,19.59625412384048,1029.6449175411835,,00193,2023-05-22_13h12.12.942,codetms_version2,2022.2.5,None,
64.BMP,a,0,45,45,39,,,,,,,,,,,,,,,,,,,,,1040.6920665001962,1029.6449175411835,1029.6449175411835,a,1,11.026437874883413,1043.730762124993,,00193,2023-05-22_13h12.12.942,codetms_version2,2022.2.5,None,
305.bmp,b,0,46,46,51,,,,,,,,,,,,,,,,,,,,,1051.1010796250775,1043.730762124993,1043.730762124993,a,0,7.35696225007996,1054.120366041083,,00193,2023-05-22_13h12.12.942,codetms_version2,2022.2.5,None,
146.bmp,a,0,47,47,49,,,,,,,,,,,,,,,,,,,,,1084.5154765001498,1054.120366041083,1054.120366041083,a,1,30.380568540887907,,,00193,2023-05-22_13h12.12.942,codetms_version2,2022.2.5,None,
88.BMP,b,0,48,48,37,,,,,,,,,,,,,,,,,,,,,1097.9276046662126,1087.541601375211,1087.541601375211,b,1,10.369343999773264,1100.9430442911107,,00193,2023-05-22_13h12.12.942,codetms_version2,2022.2.5,None,
77.BMP,b,0,49,49,30,,,,,,,,,,,,,,,,,,,,,1113.921956458129,1100.9430442911107,1100.9430442911107,b,1,12.965857540955767,1116.956433125073,,00193,2023-05-22_13h12.12.942,codetms_version2,2022.2.5,None,
117.jpg,a,0,50,50,29,,,,,,,,,,,,,,,,,,,,,1137.141383166192,1116.956433125073,1116.956433125073,a,1,20.169330248842016,1140.1596997079905,,00193,2023-05-22_13h12.12.942,codetms_version2,2022.2.5,None,
86.BMP,b,0,51,51,31,,,,,,,,,,,,,,,,,,,,,1147.9621441659983,1140.1596997079905,1140.1596997079905,b,1,7.790593916084617,1150.984627333004,,00193,2023-05-22_13h12.12.942,codetms_version2,2022.2.5,None,
111.jpg,a,0,52,52,28,,,,,,,,,,,,,,,,,,,,,1164.4069826251362,1150.984627333004,1150.984627333004,a,1,13.404231623979285,1167.4426198750734,,00193,2023-05-22_13h12.12.942,codetms_version2,2022.2.5,None,
109.jpg,a,0,53,53,25,,,,,,,,,,,,,,,,,,,,,1175.5828907501418,1167.4426198750734,1167.4426198750734,a,1,8.122281373944134,1178.6102662910707,,00193,2023-05-22_13h12.12.942,codetms_version2,2022.2.5,None,
108.jpg,a,0,54,54,32,,,,,,,,,,,,,,,,,,,,,1191.5938550829887,1178.6102662910707,1178.6102662910707,a,1,12.96593316597864,1194.6193352080882,,00193,2023-05-22_13h12.12.942,codetms_version2,2022.2.5,None,
84.BMP,a,0,55,55,38,,,,,,,,,,,,,,,,,,,,,1198.4811182501726,1194.6193352080882,1194.6193352080882,a,1,3.846372582949698,1201.505208583083,,00193,2023-05-22_13h12.12.942,codetms_version2,2022.2.5,None,
308.bmp,b,0,56,56,52,,,,,,,,,,,,,,,,,,,,,1253.3044141661376,1201.505208583083,1201.505208583083,b,1,51.77831866615452,1256.3223825411405,,00193,2023-05-22_13h12.12.942,codetms_version2,2022.2.5,None,
37.BMP,a,0,57,57,14,,,,,,,,,,,,,,,,,,,,,1268.6124147081282,1256.3223825411405,1256.3223825411405,a,1,12.275552290957421,1271.6330155830365,,00193,2023-05-22_13h12.12.942,codetms_version2,2022.2.5,None,
132.bmp,b,0,58,58,48,,,,,,,,,,,,,,,,,,,,,1291.7964785411023,1271.6330155830365,1271.6330155830365,a,0,20.156649332959205,1294.8118285411038,,00193,2023-05-22_13h12.12.942,codetms_version2,2022.2.5,None,
317.bmp,a,0,59,59,55,,,,,,,,,,,,,,,,,,,,,1318.4787305830978,1294.8118285411038,1294.8118285411038,a,1,23.64762383303605,1321.4950691661797,,00193,2023-05-22_13h12.12.942,codetms_version2,2022.2.5,None,
149.bmp,a,0,60,60,44,,,,,,,,,,,,,,,,,,,,,1341.355961207999,1321.4950691661797,1321.4950691661797,b,0,19.848079290939495,1344.5451252080966,,00193,2023-05-22_13h12.12.942,codetms_version2,2022.2.5,None,
,,,,,,,,,,,,,,,,,,,,,,,,,,,,,,,,,1344.5451252080966,,,,,,
